File: Python Codes/EIS_Processing/0720_05_Plotting/0928_01_0.5MTFSI_ZnEMD_InsideGB_0hr_RT_EIS-Remade_from_091923-01_BCD_C01.mpt
EC-Lab ASCII FILE
Nb header lines : 70

Battery Capacity Determination

Run on channel : 1 (SN 35512)
User :
CE vs. WE compliance from -10 V to 10 V
Electrode connection : standard
Ewe ctrl range : min = -5.00 V, max = 5.00 V
Safety Limits :
	Do not start on E overload
Acquisition started on : 09/29/2023 08:44:31
Technique started on : 09/29/2023 08:44:31
Saved on :
	File : 0928_01_0.5MTFSI_ZnEMD_InsideGB_0hr_RT_EIS-Remade_from_091923-01_BCD_C01.mpr
	Directory : C:\Users\CESL\Documents\EC-Lab\Data\PhD\Leifer\Results\Zn Ion GPE\2023\0928\
	Host : 10.110.196.171
Device : VSP (SN 1724172417241724)
Address : USB
EC-Lab for windows v11.16 (software)
Internet server v11.16 (firmware)
Command interpretor v11.16 (firmware)
Electrode material : Au/Pd
Initial state :
Electrolyte : NaCl (0.2M)
Comments : Fe(CN)63-/Fe(CN)64- 5.10-3 M
Reference electrode : SCE Saturated Calomel Electrode (0.241 V)
Electrode surface area : 0.001 cm²
Characteristic mass : 0.001 g
Equivalent Weight : 0.000 g/eq.
Density : 0.000 g/cm3
Cycle Definition : Charge/Discharge alternance
Set I/C             I
Is1                 100.000
unit Is1            µA
N1                  1.00
I1 sign             > 0
t1 (h:m:s)          11:00:0.0000
EM1 (V)             1.900
EM1 vs.             Ref
EM2 (V)             0.800
EM2 vs.             Ref
dE1 (mV)            0.00
dt1 (s)             10.0000
Hold EM1            1
tM1 (h:m:s)         1:00:0.0000
Set I limit         0
Im                  90.000
unit Im             µA
Nl                  20.00
I Range             1 mA
Bandwidth           5
E range min (V)     -5.000
E range max (V)     5.000
tR (h:m:s)          0:00:0.0000
dER/dt (mV/h)       0.0
dER (mV)            0.00
dtR (s)             0.0000
Charge/Discharge    1
Set I/C             I
Is2                 -100.000
unit Is2            µA
N2                  1.00
I2 sign             > 0
t2 (h:m:s)          11:00:0.0000
Return Ei           0
use C               1

mode	ox/red	error	control changes	time/s	control/V/mA	Ewe/V	I/mA	dq/mA.h	(Q-Qo)/mA.h	Q charge/discharge/mA.h	half cycle	Energy charge/W.h	Energy discharge/W.h	Capacitance charge/µF	Capacitance discharge/µF	Q discharge/mA.h	Q charge/mA.h	Capacity/mA.h	Efficiency/%	control/V	control/mA	cycle number	P/W
1	1	0	1	0.000000000000000E+000	0.1	-1.12945	0.099863	0.000000000000000E+000	0.000000000000000E+000	0.000000000000000E+000	0	0.000000000000000E+000	0.000000000000000E+000	0.000000000000000E+000	0.000000000000000E+000	0.000000000000000E+000	0.000000000000000E+000	0.000000000000000E+000	0	0	0.1	0.000000000000000E+000	-0.000112791
1	1	0	1	80	0.1	-0.639154	0.0997803	0.000277324	0.0022186	0.0022186	0	-1.62742e-06	0.000000000000000E+000	38286.3	0.000000000000000E+000	0.000000000000000E+000	0.0022186	0.0022186	0	0	0.1	0.000000000000000E+000	-6.3775e-05
1	1	0	1	160	0.1	-0.513988	0.0998376	0.000277317	0.00443716	0.00443716	0	-2.87766e-06	0.000000000000000E+000	47857.5	0.000000000000000E+000	0.000000000000000E+000	0.00443716	0.00443716	0	0	0.1	0.000000000000000E+000	-5.13153e-05
1	1	0	1	240	0.1	-0.430505	0.0998312	0.00027731	0.00665566	0.00665566	0	-3.90843e-06	0.000000000000000E+000	57423	0.000000000000000E+000	0.000000000000000E+000	0.00665566	0.00665566	0	0	0.1	0.000000000000000E+000	-4.29778e-05
1	1	0	1	320	0.1	-0.36902	0.0999203	0.000277315	0.00887415	0.00887415	0	-4.78367e-06	0.000000000000000E+000	66730.4	0.000000000000000E+000	0.000000000000000E+000	0.00887415	0.00887415	0	0	0.1	0.000000000000000E+000	-3.68726e-05
1	1	0	1	400	0.1	-0.322237	0.0998376	0.000277304	0.0110926	0.0110926	0	-5.54187e-06	0.000000000000000E+000	75987.1	0.000000000000000E+000	0.000000000000000E+000	0.0110926	0.0110926	0	0	0.1	0.000000000000000E+000	-3.21714e-05
1	1	0	1	480	0.1	-0.283074	0.0998821	0.000277295	0.013311	0.013311	0	-6.20733e-06	0.000000000000000E+000	84859.6	0.000000000000000E+000	0.000000000000000E+000	0.013311	0.013311	0	0	0.1	0.000000000000000E+000	-2.8274e-05
1	1	0	1	560	0.1	-0.245858	0.0997357	0.000277295	0.0155294	0.0155294	0	-6.78926e-06	0.000000000000000E+000	92880.8	0.000000000000000E+000	0.000000000000000E+000	0.0155294	0.0155294	0	0	0.1	0.000000000000000E+000	-2.45208e-05
1	1	0	1	640	0.1	-0.20593	0.0998439	0.000277283	0.0177477	0.0177477	0	-7.28565e-06	0.000000000000000E+000	99545.2	0.000000000000000E+000	0.000000000000000E+000	0.0177477	0.0177477	0	0	0.1	0.000000000000000E+000	-2.05609e-05
1	1	0	1	720	0.1	-0.162547	0.0998758	0.00027729	0.019966	0.019966	0	-7.68891e-06	0.000000000000000E+000	104897	0.000000000000000E+000	0.000000000000000E+000	0.019966	0.019966	0	0	0.1	0.000000000000000E+000	-1.62345e-05
1	1	0	1	800	0.1	-0.115994	0.0997866	0.000277288	0.0221843	0.0221843	0	-7.9919e-06	0.000000000000000E+000	109137	0.000000000000000E+000	0.000000000000000E+000	0.0221843	0.0221843	0	0	0.1	0.000000000000000E+000	-1.15746e-05
1	1	0	1	880	0.1	-0.0657933	0.0997739	0.000277293	0.0244026	0.0244026	0	-8.18713e-06	0.000000000000000E+000	112343	0.000000000000000E+000	0.000000000000000E+000	0.0244026	0.0244026	0	0	0.1	0.000000000000000E+000	-6.56445e-06
1	1	0	1	960	0.1	-0.0121558	0.0998121	0.000277301	0.0266211	0.0266211	0	-8.26687e-06	0.000000000000000E+000	114690	0.000000000000000E+000	0.000000000000000E+000	0.0266211	0.0266211	0	0	0.1	0.000000000000000E+000	-1.2133e-06
1	1	0	1	1040	0.1	0.0442122	0.0998312	0.000277298	0.0288395	0.0288395	0	-8.22385e-06	0.000000000000000E+000	116395	0.000000000000000E+000	0.000000000000000E+000	0.0288395	0.0288395	0	0	0.1	0.000000000000000E+000	4.41375e-06
1	1	0	1	1120	0.1	0.103769	0.0998758	0.000277303	0.0310579	0.0310579	0	-8.05178e-06	0.000000000000000E+000	117503	0.000000000000000E+000	0.000000000000000E+000	0.0310579	0.0310579	0	0	0.1	0.000000000000000E+000	1.0364e-05
1	1	0	1	1200	0.1	0.164987	0.0998121	0.000277314	0.0332763	0.0332763	0	-7.74568e-06	0.000000000000000E+000	118286	0.000000000000000E+000	0.000000000000000E+000	0.0332763	0.0332763	0	0	0.1	0.000000000000000E+000	1.64677e-05
1	1	0	1	1280	0.1	0.226312	0.0997866	0.00027727	0.0354947	0.0354947	0	-7.30267e-06	0.000000000000000E+000	118968	0.000000000000000E+000	0.000000000000000E+000	0.0354947	0.0354947	0	0	0.1	0.000000000000000E+000	2.25829e-05
1	1	0	1	1360	0.1	0.257188	0.0998885	0.000277278	0.0377129	0.0377129	0	-6.74581e-06	0.000000000000000E+000	122871	0.000000000000000E+000	0.000000000000000E+000	0.0377129	0.0377129	0	0	0.1	0.000000000000000E+000	2.56901e-05
1	1	0	1	1440	0.1	0.255641	0.0998185	0.000277275	0.0399311	0.0399311	0	-6.17752e-06	0.000000000000000E+000	130280	0.000000000000000E+000	0.000000000000000E+000	0.0399311	0.0399311	0	0	0.1	0.000000000000000E+000	2.55177e-05
1	1	0	1	1520	0.1	0.252319	0.0997994	0.000277277	0.0421493	0.0421493	0	-5.61445e-06	0.000000000000000E+000	137933	0.000000000000000E+000	0.000000000000000E+000	0.0421493	0.0421493	0	0	0.1	0.000000000000000E+000	2.51813e-05
1	1	0	1	1600	0.1	0.248194	0.0998248	0.000277274	0.0443675	0.0443675	0	-5.05989e-06	0.000000000000000E+000	145738	0.000000000000000E+000	0.000000000000000E+000	0.0443675	0.0443675	0	0	0.1	0.000000000000000E+000	2.47759e-05
1	1	0	1	1680	0.1	0.244146	0.0997803	0.000277278	0.0465857	0.0465857	0	-4.51446e-06	0.000000000000000E+000	153592	0.000000000000000E+000	0.000000000000000E+000	0.0465857	0.0465857	0	0	0.1	0.000000000000000E+000	2.4361e-05
1	1	0	1	1760	0.1	0.240289	0.0997994	0.000277271	0.0488039	0.0488039	0	-3.97779e-06	0.000000000000000E+000	161475	0.000000000000000E+000	0.000000000000000E+000	0.0488039	0.0488039	0	0	0.1	0.000000000000000E+000	2.39807e-05
1	1	0	1	1840	0.1	0.236814	0.0998376	0.000277262	0.0510221	0.0510221	0	-3.44924e-06	0.000000000000000E+000	169355	0.000000000000000E+000	0.000000000000000E+000	0.0510221	0.0510221	0	0	0.1	0.000000000000000E+000	2.36429e-05
1	1	0	1	1920	0.1	0.233548	0.0998503	0.000277268	0.0532402	0.0532402	0	-2.92808e-06	0.000000000000000E+000	177252	0.000000000000000E+000	0.000000000000000E+000	0.0532402	0.0532402	0	0	0.1	0.000000000000000E+000	2.33199e-05
1	1	0	1	2000	0.1	0.230742	0.0998312	0.000277266	0.0554584	0.0554584	0	-2.41355e-06	0.000000000000000E+000	185117	0.000000000000000E+000	0.000000000000000E+000	0.0554584	0.0554584	0	0	0.1	0.000000000000000E+000	2.30352e-05
1	1	0	1	2080	0.1	0.227992	0.0998185	0.000277269	0.0576765	0.0576765	0	-1.90523e-06	0.000000000000000E+000	193013	0.000000000000000E+000	0.000000000000000E+000	0.0576765	0.0576765	0	0	0.1	0.000000000000000E+000	2.27578e-05
1	1	0	1	2160	0.1	0.2257	0.0998185	0.000277266	0.0598946	0.0598946	0	-1.40242e-06	0.000000000000000E+000	200864	0.000000000000000E+000	0.000000000000000E+000	0.0598946	0.0598946	0	0	0.1	0.000000000000000E+000	2.25291e-05
1	1	0	1	2240	0.1	0.223428	0.0998312	0.000277269	0.0621128	0.0621128	0	-9.04815e-07	0.000000000000000E+000	208745	0.000000000000000E+000	0.000000000000000E+000	0.0621128	0.0621128	0	0	0.1	0.000000000000000E+000	2.23051e-05
1	1	0	1	2320	0.1	0.221232	0.0998312	0.000277273	0.0643309	0.0643309	0	-4.1203e-07	0.000000000000000E+000	216643	0.000000000000000E+000	0.000000000000000E+000	0.0643309	0.0643309	0	0	0.1	0.000000000000000E+000	2.20859e-05
1	1	0	1	2400	0.1	0.219113	0.0997803	0.000277274	0.0665491	0.0665491	0	7.61002e-08	0.000000000000000E+000	224559	0.000000000000000E+000	0.000000000000000E+000	0.0665491	0.0665491	0	0	0.1	0.000000000000000E+000	2.18631e-05
1	1	0	1	2480	0.1	0.217318	0.0998503	0.00027728	0.0687673	0.0687673	0	5.59891e-07	0.000000000000000E+000	232435	0.000000000000000E+000	0.000000000000000E+000	0.0687673	0.0687673	0	0	0.1	0.000000000000000E+000	2.16993e-05
1	1	0	1	2560	0.1	0.215275	0.0997803	0.00027727	0.0709855	0.0709855	0	1.03932e-06	0.000000000000000E+000	240393	0.000000000000000E+000	0.000000000000000E+000	0.0709855	0.0709855	0	0	0.1	0.000000000000000E+000	2.14802e-05
1	1	0	1	2640	0.1	0.21348	0.0998758	0.000277266	0.0732037	0.0732037	0	1.51452e-06	0.000000000000000E+000	248325	0.000000000000000E+000	0.000000000000000E+000	0.0732037	0.0732037	0	0	0.1	0.000000000000000E+000	2.13215e-05
1	1	0	1	2720	0.1	0.211475	0.0997803	0.000277271	0.0754219	0.0754219	0	1.98568e-06	0.000000000000000E+000	256333	0.000000000000000E+000	0.000000000000000E+000	0.0754219	0.0754219	0	0	0.1	0.000000000000000E+000	2.1101e-05
1	1	0	1	2800	0.1	0.209737	0.0998185	0.000277273	0.07764	0.07764	0	2.45262e-06	0.000000000000000E+000	264306	0.000000000000000E+000	0.000000000000000E+000	0.07764	0.07764	0	0	0.1	0.000000000000000E+000	2.09356e-05
1	1	0	1	2880	0.1	0.20779	0.0998439	0.000277268	0.0798581	0.0798581	0	2.91546e-06	0.000000000000000E+000	272358	0.000000000000000E+000	0.000000000000000E+000	0.0798581	0.0798581	0	0	0.1	0.000000000000000E+000	2.07465e-05
1	1	0	1	2960	0.1	0.206033	0.0998503	0.000277268	0.0820763	0.0820763	0	3.37426e-06	0.000000000000000E+000	280390	0.000000000000000E+000	0.000000000000000E+000	0.0820763	0.0820763	0	0	0.1	0.000000000000000E+000	2.05724e-05
1	1	0	1	3040	0.1	0.204257	0.0997293	0.000277262	0.0842944	0.0842944	0	3.82917e-06	0.000000000000000E+000	288454	0.000000000000000E+000	0.000000000000000E+000	0.0842944	0.0842944	0	0	0.1	0.000000000000000E+000	2.03704e-05
1	1	0	1	3120	0.1	0.202596	0.0998312	0.00027727	0.0865126	0.0865126	0	4.28028e-06	0.000000000000000E+000	296512	0.000000000000000E+000	0.000000000000000E+000	0.0865126	0.0865126	0	0	0.1	0.000000000000000E+000	2.02254e-05
1	1	0	1	3200	0.1	0.200744	0.0997866	0.000277276	0.0887308	0.0887308	0	4.7275e-06	0.000000000000000E+000	304652	0.000000000000000E+000	0.000000000000000E+000	0.0887308	0.0887308	0	0	0.1	0.000000000000000E+000	2.00315e-05
1	1	0	1	3280	0.1	0.199197	0.0998121	0.000277268	0.090949	0.090949	0	5.17091e-06	0.000000000000000E+000	312730	0.000000000000000E+000	0.000000000000000E+000	0.090949	0.090949	0	0	0.1	0.000000000000000E+000	1.98823e-05
1	1	0	1	3360	0.1	0.197516	0.0998057	0.000277264	0.0931671	0.0931671	0	5.61048e-06	0.000000000000000E+000	320872	0.000000000000000E+000	0.000000000000000E+000	0.0931671	0.0931671	0	0	0.1	0.000000000000000E+000	1.97133e-05
1	1	0	1	3440	0.1	0.195951	0.0997803	0.000277259	0.0953852	0.0953852	0	6.04647e-06	0.000000000000000E+000	329004	0.000000000000000E+000	0.000000000000000E+000	0.0953852	0.0953852	0	0	0.1	0.000000000000000E+000	1.9552e-05
1	1	0	1	3520	0.1	0.194289	0.0998057	0.000277275	0.0976034	0.0976034	0	6.47892e-06	0.000000000000000E+000	337191	0.000000000000000E+000	0.000000000000000E+000	0.0976034	0.0976034	0	0	0.1	0.000000000000000E+000	1.93912e-05
1	1	0	1	3600	0.1	0.192533	0.0998821	0.000277277	0.0998215	0.0998215	0	6.90771e-06	0.000000000000000E+000	345437	0.000000000000000E+000	0.000000000000000E+000	0.0998215	0.0998215	0	0	0.1	0.000000000000000E+000	1.92306e-05
1	1	0	1	3680	0.1	0.190967	0.0997421	0.000277258	0.10204	0.10204	0	7.33293e-06	0.000000000000000E+000	353645	0.000000000000000E+000	0.000000000000000E+000	0.10204	0.10204	0	0	0.1	0.000000000000000E+000	1.90474e-05
1	1	0	1	3760	0.1	0.189573	0.0998312	0.000277268	0.104258	0.104258	0	7.75462e-06	0.000000000000000E+000	361818	0.000000000000000E+000	0.000000000000000E+000	0.104258	0.104258	0	0	0.1	0.000000000000000E+000	1.89253e-05
1	1	0	1	3840	0.1	0.187912	0.0997421	0.000277264	0.106476	0.106476	0	8.17297e-06	0.000000000000000E+000	370109	0.000000000000000E+000	0.000000000000000E+000	0.106476	0.106476	0	0	0.1	0.000000000000000E+000	1.87427e-05
1	1	0	1	3920	0.1	0.186289	0.0998376	0.000277263	0.108694	0.108694	0	8.58786e-06	0.000000000000000E+000	378412	0.000000000000000E+000	0.000000000000000E+000	0.108694	0.108694	0	0	0.1	0.000000000000000E+000	1.85986e-05
1	1	0	1	4000	0.1	0.184838	0.0998439	0.000277262	0.110912	0.110912	0	8.99929e-06	0.000000000000000E+000	386677	0.000000000000000E+000	0.000000000000000E+000	0.110912	0.110912	0	0	0.1	0.000000000000000E+000	1.84549e-05
1	1	0	1	4080	0.1	0.183329	0.0998121	0.000277261	0.11313	0.11313	0	9.4075e-06	0.000000000000000E+000	394987	0.000000000000000E+000	0.000000000000000E+000	0.11313	0.11313	0	0	0.1	0.000000000000000E+000	1.82985e-05
1	1	0	1	4160	0.1	0.182069	0.0998503	0.000277265	0.115348	0.115348	0	9.81251e-06	0.000000000000000E+000	403224	0.000000000000000E+000	0.000000000000000E+000	0.115348	0.115348	0	0	0.1	0.000000000000000E+000	1.81796e-05
1	1	0	1	4240	0.1	0.180598	0.0998121	0.000277262	0.117566	0.117566	0	1.02145e-05	0.000000000000000E+000	411565	0.000000000000000E+000	0.000000000000000E+000	0.117566	0.117566	0	0	0.1	0.000000000000000E+000	1.80259e-05
1	1	0	1	4320	0.1	0.179262	0.0998758	0.000277269	0.119784	0.119784	0	1.06134e-05	0.000000000000000E+000	419876	0.000000000000000E+000	0.000000000000000E+000	0.119784	0.119784	0	0	0.1	0.000000000000000E+000	1.79039e-05
1	1	0	1	4400	0.1	0.177753	0.0998248	0.000277264	0.122003	0.122003	0	1.10092e-05	0.000000000000000E+000	428280	0.000000000000000E+000	0.000000000000000E+000	0.122003	0.122003	0	0	0.1	0.000000000000000E+000	1.77442e-05
1	1	0	1	4480	0.1	0.176703	0.0997675	0.000277266	0.124221	0.124221	0	1.14024e-05	0.000000000000000E+000	436513	0.000000000000000E+000	0.000000000000000E+000	0.124221	0.124221	0	0	0.1	0.000000000000000E+000	1.76292e-05
1	1	0	1	4560	0.1	0.175386	0.0998057	0.000277276	0.126439	0.126439	0	1.17928e-05	0.000000000000000E+000	444880	0.000000000000000E+000	0.000000000000000E+000	0.126439	0.126439	0	0	0.1	0.000000000000000E+000	1.75045e-05
1	1	0	1	4640	0.1	0.17403	0.0998248	0.000277267	0.128657	0.128657	0	1.21802e-05	0.000000000000000E+000	453286	0.000000000000000E+000	0.000000000000000E+000	0.128657	0.128657	0	0	0.1	0.000000000000000E+000	1.73725e-05
1	1	0	1	4720	0.1	0.172999	0.0998185	0.000277267	0.130875	0.130875	0	1.25648e-05	0.000000000000000E+000	461567	0.000000000000000E+000	0.000000000000000E+000	0.130875	0.130875	0	0	0.1	0.000000000000000E+000	1.72685e-05
1	1	0	1	4800	0.1	0.171777	0.099793	0.000277268	0.133093	0.133093	0	1.29469e-05	0.000000000000000E+000	469952	0.000000000000000E+000	0.000000000000000E+000	0.133093	0.133093	0	0	0.1	0.000000000000000E+000	1.71421e-05
1	1	0	1	4880	0.1	0.170631	0.0998185	0.000277263	0.135311	0.135311	0	1.33264e-05	0.000000000000000E+000	478322	0.000000000000000E+000	0.000000000000000E+000	0.135311	0.135311	0	0	0.1	0.000000000000000E+000	1.70321e-05
1	1	0	1	4960	0.1	0.169504	0.0998439	0.000277282	0.13753	0.13753	0	1.37035e-05	0.000000000000000E+000	486701	0.000000000000000E+000	0.000000000000000E+000	0.13753	0.13753	0	0	0.1	0.000000000000000E+000	1.6924e-05
1	1	0	1	5040	0.1	0.168511	0.0997866	0.000277283	0.139748	0.139748	0	1.40784e-05	0.000000000000000E+000	495035	0.000000000000000E+000	0.000000000000000E+000	0.139748	0.139748	0	0	0.1	0.000000000000000E+000	1.68152e-05
1	1	0	1	5120	0.1	0.16748	0.0998567	0.000277278	0.141966	0.141966	0	1.44509e-05	0.000000000000000E+000	503403	0.000000000000000E+000	0.000000000000000E+000	0.141966	0.141966	0	0	0.1	0.000000000000000E+000	1.6724e-05
1	1	0	1	5200	0.1	0.166526	0.0998185	0.000277284	0.144184	0.144184	0	1.48213e-05	0.000000000000000E+000	511750	0.000000000000000E+000	0.000000000000000E+000	0.144184	0.144184	0	0	0.1	0.000000000000000E+000	1.66223e-05
1	1	0	1	5280	0.1	0.165704	0.099863	0.000277279	0.146403	0.146403	0	1.51898e-05	0.000000000000000E+000	520044	0.000000000000000E+000	0.000000000000000E+000	0.146403	0.146403	0	0	0.1	0.000000000000000E+000	1.65477e-05
1	1	0	1	5360	0.1	0.164807	0.099793	0.000277272	0.148621	0.148621	0	1.55561e-05	0.000000000000000E+000	528392	0.000000000000000E+000	0.000000000000000E+000	0.148621	0.148621	0	0	0.1	0.000000000000000E+000	1.64466e-05
1	1	0	1	5440	0.1	0.163967	0.0998185	0.000277269	0.150839	0.150839	0	1.59206e-05	0.000000000000000E+000	536723	0.000000000000000E+000	0.000000000000000E+000	0.150839	0.150839	0	0	0.1	0.000000000000000E+000	1.63669e-05
1	1	0	1	5520	0.1	0.163165	0.0998376	0.000277278	0.153057	0.153057	0	1.62832e-05	0.000000000000000E+000	545048	0.000000000000000E+000	0.000000000000000E+000	0.153057	0.153057	0	0	0.1	0.000000000000000E+000	1.629e-05
1	1	0	1	5600	0.1	0.162439	0.0998567	0.000277279	0.155275	0.155275	0	1.66441e-05	0.000000000000000E+000	553345	0.000000000000000E+000	0.000000000000000E+000	0.155275	0.155275	0	0	0.1	0.000000000000000E+000	1.62206e-05
1	1	0	1	5680	0.1	0.161465	0.099793	0.000277279	0.157494	0.157494	0	1.70032e-05	0.000000000000000E+000	561791	0.000000000000000E+000	0.000000000000000E+000	0.157494	0.157494	0	0	0.1	0.000000000000000E+000	1.61131e-05
1	1	0	1	5760	0.1	0.160759	0.0998185	0.000277277	0.159712	0.159712	0	1.73606e-05	0.000000000000000E+000	570103	0.000000000000000E+000	0.000000000000000E+000	0.159712	0.159712	0	0	0.1	0.000000000000000E+000	1.60467e-05
1	1	0	1	5840	0.1	0.160033	0.0998439	0.000277278	0.16193	0.16193	0	1.77163e-05	0.000000000000000E+000	578437	0.000000000000000E+000	0.000000000000000E+000	0.16193	0.16193	0	0	0.1	0.000000000000000E+000	1.59784e-05
1	1	0	1	5920	0.1	0.159403	0.0997421	0.000277277	0.164148	0.164148	0	1.80705e-05	0.000000000000000E+000	586727	0.000000000000000E+000	0.000000000000000E+000	0.164148	0.164148	0	0	0.1	0.000000000000000E+000	1.58992e-05
1	1	0	1	6000	0.1	0.15862	0.0997675	0.000277282	0.166366	0.166366	0	1.8423e-05	0.000000000000000E+000	595119	0.000000000000000E+000	0.000000000000000E+000	0.166366	0.166366	0	0	0.1	0.000000000000000E+000	1.58252e-05
1	1	0	1	6080	0.1	0.157895	0.099863	0.000277276	0.168585	0.168585	0	1.8774e-05	0.000000000000000E+000	603489	0.000000000000000E+000	0.000000000000000E+000	0.168585	0.168585	0	0	0.1	0.000000000000000E+000	1.57678e-05
1	1	0	1	6160	0.1	0.157494	0.0998694	0.000277282	0.170803	0.170803	0	1.91238e-05	0.000000000000000E+000	611673	0.000000000000000E+000	0.000000000000000E+000	0.170803	0.170803	0	0	0.1	0.000000000000000E+000	1.57288e-05
1	1	0	1	6240	0.1	0.156654	0.0998312	0.000277277	0.173021	0.173021	0	1.9472e-05	0.000000000000000E+000	620136	0.000000000000000E+000	0.000000000000000E+000	0.173021	0.173021	0	0	0.1	0.000000000000000E+000	1.56389e-05
1	1	0	1	6320	0.1	0.156138	0.0997994	0.000277283	0.175239	0.175239	0	1.9819e-05	0.000000000000000E+000	628409	0.000000000000000E+000	0.000000000000000E+000	0.175239	0.175239	0	0	0.1	0.000000000000000E+000	1.55825e-05
1	1	0	1	6400	0.1	0.155603	0.0997866	0.000277283	0.177458	0.177458	0	2.01646e-05	0.000000000000000E+000	636703	0.000000000000000E+000	0.000000000000000E+000	0.177458	0.177458	0	0	0.1	0.000000000000000E+000	1.55271e-05
1	1	0	1	6480	0.1	0.154954	0.0997739	0.000277271	0.179676	0.179676	0	2.05087e-05	0.000000000000000E+000	645079	0.000000000000000E+000	0.000000000000000E+000	0.179676	0.179676	0	0	0.1	0.000000000000000E+000	1.54604e-05
1	1	0	1	6560	0.1	0.154496	0.0998503	0.000277275	0.181894	0.181894	0	2.08518e-05	0.000000000000000E+000	653341	0.000000000000000E+000	0.000000000000000E+000	0.181894	0.181894	0	0	0.1	0.000000000000000E+000	1.54265e-05
1	1	0	1	6640	0.1	0.153904	0.0998503	0.000277263	0.184112	0.184112	0	2.11937e-05	0.000000000000000E+000	661700	0.000000000000000E+000	0.000000000000000E+000	0.184112	0.184112	0	0	0.1	0.000000000000000E+000	1.53673e-05
1	1	0	1	6720	0.1	0.153331	0.0997739	0.000277271	0.18633	0.18633	0	2.15343e-05	0.000000000000000E+000	670055	0.000000000000000E+000	0.000000000000000E+000	0.18633	0.18633	0	0	0.1	0.000000000000000E+000	1.52984e-05
1	1	0	1	6800	0.1	0.152835	0.0997675	0.000277252	0.188549	0.188549	0	2.18738e-05	0.000000000000000E+000	678367	0.000000000000000E+000	0.000000000000000E+000	0.188549	0.188549	0	0	0.1	0.000000000000000E+000	1.52479e-05
1	1	0	1	6880	0.1	0.152319	0.0998439	0.000277263	0.190767	0.190767	0	2.22122e-05	0.000000000000000E+000	686702	0.000000000000000E+000	0.000000000000000E+000	0.190767	0.190767	0	0	0.1	0.000000000000000E+000	1.52081e-05
1	1	0	1	6960	0.1	0.151918	0.0997357	0.000277267	0.192985	0.192985	0	2.25495e-05	0.000000000000000E+000	694965	0.000000000000000E+000	0.000000000000000E+000	0.192985	0.192985	0	0	0.1	0.000000000000000E+000	1.51516e-05
1	1	0	1	7040	0.1	0.151402	0.0997994	0.000277262	0.195203	0.195203	0	2.28857e-05	0.000000000000000E+000	703315	0.000000000000000E+000	0.000000000000000E+000	0.195203	0.195203	0	0	0.1	0.000000000000000E+000	1.51099e-05
1	1	0	1	7120	0.1	0.15062	0.0998376	0.00027726	0.197421	0.197421	0	2.32211e-05	0.000000000000000E+000	711865	0.000000000000000E+000	0.000000000000000E+000	0.197421	0.197421	0	0	0.1	0.000000000000000E+000	1.50375e-05
1	1	0	1	7200	0.1	0.149856	0.0998376	0.000277267	0.199639	0.199639	0	2.35543e-05	0.000000000000000E+000	720414	0.000000000000000E+000	0.000000000000000E+000	0.199639	0.199639	0	0	0.1	0.000000000000000E+000	1.49612e-05
1	1	0	1	7280	0.1	0.14955	0.0998057	0.00027728	0.201857	0.201857	0	2.38863e-05	0.000000000000000E+000	728642	0.000000000000000E+000	0.000000000000000E+000	0.201857	0.201857	0	0	0.1	0.000000000000000E+000	1.4926e-05
1	1	0	1	7360	0.1	0.149073	0.0998185	0.000277281	0.204075	0.204075	0	2.42173e-05	0.000000000000000E+000	737002	0.000000000000000E+000	0.000000000000000E+000	0.204075	0.204075	0	0	0.1	0.000000000000000E+000	1.48802e-05
1	1	0	1	7440	0.1	0.148729	0.0997803	0.000277281	0.206294	0.206294	0	2.45476e-05	0.000000000000000E+000	745270	0.000000000000000E+000	0.000000000000000E+000	0.206294	0.206294	0	0	0.1	0.000000000000000E+000	1.48402e-05
1	1	0	1	7520	0.1	0.148443	0.099863	0.000277273	0.208512	0.208512	0	2.48771e-05	0.000000000000000E+000	753500	0.000000000000000E+000	0.000000000000000E+000	0.208512	0.208512	0	0	0.1	0.000000000000000E+000	1.48239e-05
1	1	0	1	7600	0.1	0.147984	0.0997675	0.000277286	0.21073	0.21073	0	2.52058e-05	0.000000000000000E+000	761866	0.000000000000000E+000	0.000000000000000E+000	0.21073	0.21073	0	0	0.1	0.000000000000000E+000	1.4764e-05
1	1	0	1	7680	0.1	0.147736	0.0997421	0.000277281	0.212948	0.212948	0	2.55339e-05	0.000000000000000E+000	770078	0.000000000000000E+000	0.000000000000000E+000	0.212948	0.212948	0	0	0.1	0.000000000000000E+000	1.47355e-05
1	1	0	1	7760	0.1	0.147373	0.0998185	0.000277274	0.215167	0.215167	0	2.58612e-05	0.000000000000000E+000	778383	0.000000000000000E+000	0.000000000000000E+000	0.215167	0.215167	0	0	0.1	0.000000000000000E+000	1.47106e-05
1	1	0	1	7840	0.1	0.147182	0.0998312	0.000277271	0.217385	0.217385	0	2.61879e-05	0.000000000000000E+000	786559	0.000000000000000E+000	0.000000000000000E+000	0.217385	0.217385	0	0	0.1	0.000000000000000E+000	1.46934e-05
1	1	0	1	7920	0.1	0.146686	0.0999012	0.000277278	0.219603	0.219603	0	2.65138e-05	0.000000000000000E+000	794981	0.000000000000000E+000	0.000000000000000E+000	0.219603	0.219603	0	0	0.1	0.000000000000000E+000	1.46541e-05
1	1	0	1	8000	0.1	0.14638	0.0998821	0.000277282	0.221821	0.221821	0	2.6839e-05	0.000000000000000E+000	803258	0.000000000000000E+000	0.000000000000000E+000	0.221821	0.221821	0	0	0.1	0.000000000000000E+000	1.46208e-05
1	1	0	1	8080	0.1	0.146132	0.0998121	0.000277276	0.224039	0.224039	0	2.71634e-05	0.000000000000000E+000	811494	0.000000000000000E+000	0.000000000000000E+000	0.224039	0.224039	0	0	0.1	0.000000000000000E+000	1.45858e-05
1	1	0	1	8160	0.1	0.145789	0.099793	0.000277285	0.226258	0.226258	0	2.74872e-05	0.000000000000000E+000	819812	0.000000000000000E+000	0.000000000000000E+000	0.226258	0.226258	0	0	0.1	0.000000000000000E+000	1.45487e-05
1	1	0	1	8240	0.1	0.145445	0.0998567	0.000277287	0.228476	0.228476	0	2.78103e-05	0.000000000000000E+000	828136	0.000000000000000E+000	0.000000000000000E+000	0.228476	0.228476	0	0	0.1	0.000000000000000E+000	1.45236e-05
1	1	0	1	8320	0.1	0.145139	0.0998312	0.000277305	0.230694	0.230694	0	2.81327e-05	0.000000000000000E+000	836434	0.000000000000000E+000	0.000000000000000E+000	0.230694	0.230694	0	0	0.1	0.000000000000000E+000	1.44894e-05
1	1	0	1	8400	0.1	0.144929	0.0998185	0.00027732	0.232913	0.232913	0	2.84544e-05	0.000000000000000E+000	844656	0.000000000000000E+000	0.000000000000000E+000	0.232913	0.232913	0	0	0.1	0.000000000000000E+000	1.44666e-05
1	1	0	1	8480	0.1	0.144547	0.0998821	0.000277314	0.235131	0.235131	0	2.87754e-05	0.000000000000000E+000	853030	0.000000000000000E+000	0.000000000000000E+000	0.235131	0.235131	0	0	0.1	0.000000000000000E+000	1.44377e-05
1	1	0	1	8560	0.1	0.144051	0.0998694	0.000277319	0.23735	0.23735	0	2.90956e-05	0.000000000000000E+000	861510	0.000000000000000E+000	0.000000000000000E+000	0.23735	0.23735	0	0	0.1	0.000000000000000E+000	1.43863e-05
1	1	0	1	8640	0.1	0.143936	0.0998057	0.000277328	0.239568	0.239568	0	2.94151e-05	0.000000000000000E+000	869663	0.000000000000000E+000	0.000000000000000E+000	0.239568	0.239568	0	0	0.1	0.000000000000000E+000	1.43657e-05
1	1	0	1	8720	0.1	0.143554	0.0998885	0.000277316	0.241787	0.241787	0	2.97339e-05	0.000000000000000E+000	878055	0.000000000000000E+000	0.000000000000000E+000	0.241787	0.241787	0	0	0.1	0.000000000000000E+000	1.43394e-05
1	1	0	1	8800	0.1	0.143211	0.0997357	0.000277326	0.244006	0.244006	0	3.0052e-05	0.000000000000000E+000	886419	0.000000000000000E+000	0.000000000000000E+000	0.244006	0.244006	0	0	0.1	0.000000000000000E+000	1.42832e-05
1	1	0	1	8880	0.1	0.143001	0.0998567	0.000277326	0.246224	0.246224	0	3.03693e-05	0.000000000000000E+000	894668	0.000000000000000E+000	0.000000000000000E+000	0.246224	0.246224	0	0	0.1	0.000000000000000E+000	1.42796e-05
1	1	0	1	8960	0.1	0.142657	0.0998694	0.000277325	0.248443	0.248443	0	3.0686e-05	0.000000000000000E+000	903043	0.000000000000000E+000	0.000000000000000E+000	0.248443	0.248443	0	0	0.1	0.000000000000000E+000	1.42471e-05
1	1	0	1	9040	0.1	0.142256	0.0998885	0.000277323	0.250661	0.250661	0	3.1002e-05	0.000000000000000E+000	911476	0.000000000000000E+000	0.000000000000000E+000	0.250661	0.250661	0	0	0.1	0.000000000000000E+000	1.42097e-05
1	1	0	1	9120	0.1	0.141989	0.0997739	0.000277319	0.25288	0.25288	0	3.13173e-05	0.000000000000000E+000	919792	0.000000000000000E+000	0.000000000000000E+000	0.25288	0.25288	0	0	0.1	0.000000000000000E+000	1.41668e-05
1	1	0	1	9200	0.1	0.141702	0.0998057	0.000277318	0.255099	0.255099	0	3.16319e-05	0.000000000000000E+000	928130	0.000000000000000E+000	0.000000000000000E+000	0.255099	0.255099	0	0	0.1	0.000000000000000E+000	1.41427e-05
1	1	0	1	9280	0.1	0.141492	0.099863	0.00027732	0.257317	0.257317	0	3.19461e-05	0.000000000000000E+000	936400	0.000000000000000E+000	0.000000000000000E+000	0.257317	0.257317	0	0	0.1	0.000000000000000E+000	1.41298e-05
1	1	0	1	9360	0.1	0.140958	0.0998503	0.000277322	0.259536	0.259536	0	3.22593e-05	0.000000000000000E+000	944985	0.000000000000000E+000	0.000000000000000E+000	0.259536	0.259536	0	0	0.1	0.000000000000000E+000	1.40747e-05
1	1	0	1	9440	0.1	0.140671	0.0998821	0.000277307	0.261754	0.261754	0	3.25719e-05	0.000000000000000E+000	953338	0.000000000000000E+000	0.000000000000000E+000	0.261754	0.261754	0	0	0.1	0.000000000000000E+000	1.40505e-05
1	1	0	1	9520	0.1	0.140385	0.0998312	0.000277309	0.263973	0.263973	0	3.28838e-05	0.000000000000000E+000	961697	0.000000000000000E+000	0.000000000000000E+000	0.263973	0.263973	0	0	0.1	0.000000000000000E+000	1.40148e-05
1	1	0	1	9600	0.1	0.140194	0.0998057	0.000277294	0.266191	0.266191	0	3.31951e-05	0.000000000000000E+000	969967	0.000000000000000E+000	0.000000000000000E+000	0.266191	0.266191	0	0	0.1	0.000000000000000E+000	1.39921e-05
1	1	0	1	9680	0.1	0.139831	0.099863	0.000277304	0.268409	0.268409	0	3.35057e-05	0.000000000000000E+000	978410	0.000000000000000E+000	0.000000000000000E+000	0.268409	0.268409	0	0	0.1	0.000000000000000E+000	1.39639e-05
1	1	0	1	9760	0.1	0.13964	0.0998057	0.000277303	0.270628	0.270628	0	3.38157e-05	0.000000000000000E+000	986687	0.000000000000000E+000	0.000000000000000E+000	0.270628	0.270628	0	0	0.1	0.000000000000000E+000	1.39369e-05
1	1	0	1	9840	0.1	0.13943	0.0998248	0.000277298	0.272846	0.272846	0	3.41251e-05	0.000000000000000E+000	994987	0.000000000000000E+000	0.000000000000000E+000	0.272846	0.272846	0	0	0.1	0.000000000000000E+000	1.39186e-05
1	1	0	1	9920	0.1	0.13901	0.0998248	0.000277292	0.275065	0.275065	0	3.44338e-05	0.000000000000000E+000	1.0035e+06	0.000000000000000E+000	0.000000000000000E+000	0.275065	0.275065	0	0	0.1	0.000000000000000E+000	1.38766e-05
1	1	0	1	10000	0.1	0.138781	0.0997866	0.000277308	0.277283	0.277283	0	3.4742e-05	0.000000000000000E+000	1.01183e+06	0.000000000000000E+000	0.000000000000000E+000	0.277283	0.277283	0	0	0.1	0.000000000000000E+000	1.38485e-05
1	1	0	1	10080	0.1	0.138552	0.0998439	0.000277305	0.279501	0.279501	0	3.50495e-05	0.000000000000000E+000	1.02016e+06	0.000000000000000E+000	0.000000000000000E+000	0.279501	0.279501	0	0	0.1	0.000000000000000E+000	1.38335e-05
1	1	0	1	10160	0.1	0.138208	0.0998885	0.00027729	0.28172	0.28172	0	3.53565e-05	0.000000000000000E+000	1.02862e+06	0.000000000000000E+000	0.000000000000000E+000	0.28172	0.28172	0	0	0.1	0.000000000000000E+000	1.38054e-05
1	1	0	1	10240	0.1	0.138036	0.0998057	0.000277292	0.283938	0.283938	0	3.56627e-05	0.000000000000000E+000	1.0369e+06	0.000000000000000E+000	0.000000000000000E+000	0.283938	0.283938	0	0	0.1	0.000000000000000E+000	1.37768e-05
1	1	0	1	10320	0.1	0.137788	0.0998121	0.000277282	0.286157	0.286157	0	3.59685e-05	0.000000000000000E+000	1.04526e+06	0.000000000000000E+000	0.000000000000000E+000	0.286157	0.286157	0	0	0.1	0.000000000000000E+000	1.37529e-05
1	1	0	1	10400	0.1	0.137387	0.0998057	0.000277291	0.288375	0.288375	0	3.62736e-05	0.000000000000000E+000	1.0538e+06	0.000000000000000E+000	0.000000000000000E+000	0.288375	0.288375	0	0	0.1	0.000000000000000E+000	1.3712e-05
1	1	0	1	10480	0.1	0.137196	0.099793	0.00027729	0.290593	0.290593	0	3.65781e-05	0.000000000000000E+000	1.06211e+06	0.000000000000000E+000	0.000000000000000E+000	0.290593	0.290593	0	0	0.1	0.000000000000000E+000	1.36912e-05
1	1	0	1	10560	0.1	0.136852	0.0998248	0.000277281	0.292811	0.292811	0	3.6882e-05	0.000000000000000E+000	1.07059e+06	0.000000000000000E+000	0.000000000000000E+000	0.292811	0.292811	0	0	0.1	0.000000000000000E+000	1.36612e-05
1	1	0	1	10640	0.1	0.136718	0.0998567	0.000277284	0.29503	0.29503	0	3.71855e-05	0.000000000000000E+000	1.07885e+06	0.000000000000000E+000	0.000000000000000E+000	0.29503	0.29503	0	0	0.1	0.000000000000000E+000	1.36522e-05
1	1	0	1	10720	0.1	0.136528	0.0998376	0.000277287	0.297248	0.297248	0	3.74884e-05	0.000000000000000E+000	1.08717e+06	0.000000000000000E+000	0.000000000000000E+000	0.297248	0.297248	0	0	0.1	0.000000000000000E+000	1.36306e-05
1	1	0	1	10800	0.1	0.136165	0.0998121	0.000277281	0.299466	0.299466	0	3.77908e-05	0.000000000000000E+000	1.09569e+06	0.000000000000000E+000	0.000000000000000E+000	0.299466	0.299466	0	0	0.1	0.000000000000000E+000	1.35909e-05
1	1	0	1	10880	0.1	0.135916	0.0998949	0.000277276	0.301684	0.301684	0	3.80925e-05	0.000000000000000E+000	1.10408e+06	0.000000000000000E+000	0.000000000000000E+000	0.301684	0.301684	0	0	0.1	0.000000000000000E+000	1.35774e-05
1	1	0	1	10960	0.1	0.135649	0.0998248	0.000277284	0.303903	0.303903	0	3.83937e-05	0.000000000000000E+000	1.1125e+06	0.000000000000000E+000	0.000000000000000E+000	0.303903	0.303903	0	0	0.1	0.000000000000000E+000	1.35412e-05
1	1	0	1	11040	0.1	0.135363	0.0997994	0.000277281	0.306121	0.306121	0	3.86943e-05	0.000000000000000E+000	1.12095e+06	0.000000000000000E+000	0.000000000000000E+000	0.306121	0.306121	0	0	0.1	0.000000000000000E+000	1.35091e-05
1	1	0	1	11120	0.1	0.135153	0.0998376	0.000277273	0.308339	0.308339	0	3.89944e-05	0.000000000000000E+000	1.12931e+06	0.000000000000000E+000	0.000000000000000E+000	0.308339	0.308339	0	0	0.1	0.000000000000000E+000	1.34933e-05
1	1	0	1	11200	0.1	0.134885	0.0998694	0.000277278	0.310557	0.310557	0	3.9294e-05	0.000000000000000E+000	1.13775e+06	0.000000000000000E+000	0.000000000000000E+000	0.310557	0.310557	0	0	0.1	0.000000000000000E+000	1.34709e-05
1	1	0	1	11280	0.1	0.134752	0.0998121	0.000277277	0.312776	0.312776	0	3.95931e-05	0.000000000000000E+000	1.14603e+06	0.000000000000000E+000	0.000000000000000E+000	0.312776	0.312776	0	0	0.1	0.000000000000000E+000	1.34499e-05
1	1	0	1	11360	0.1	0.134351	0.0998503	0.000277277	0.314994	0.314994	0	3.98917e-05	0.000000000000000E+000	1.15463e+06	0.000000000000000E+000	0.000000000000000E+000	0.314994	0.314994	0	0	0.1	0.000000000000000E+000	1.3415e-05
1	1	0	1	11440	0.1	0.134351	0.0998694	0.000277285	0.317212	0.317212	0	4.01898e-05	0.000000000000000E+000	1.16276e+06	0.000000000000000E+000	0.000000000000000E+000	0.317212	0.317212	0	0	0.1	0.000000000000000E+000	1.34175e-05
1	1	0	1	11520	0.1	0.134064	0.0998503	0.000277279	0.31943	0.31943	0	4.04874e-05	0.000000000000000E+000	1.17123e+06	0.000000000000000E+000	0.000000000000000E+000	0.31943	0.31943	0	0	0.1	0.000000000000000E+000	1.33864e-05
1	1	0	1	11600	0.1	0.133892	0.0998185	0.000277285	0.321649	0.321649	0	4.07845e-05	0.000000000000000E+000	1.17957e+06	0.000000000000000E+000	0.000000000000000E+000	0.321649	0.321649	0	0	0.1	0.000000000000000E+000	1.33649e-05
1	1	0	1	11680	0.1	0.133549	0.0998439	0.000277292	0.323867	0.323867	0	4.1081e-05	0.000000000000000E+000	1.18812e+06	0.000000000000000E+000	0.000000000000000E+000	0.323867	0.323867	0	0	0.1	0.000000000000000E+000	1.3334e-05
1	1	0	1	11760	0.1	0.133453	0.0997866	0.0002773	0.326085	0.326085	0	4.13771e-05	0.000000000000000E+000	1.19638e+06	0.000000000000000E+000	0.000000000000000E+000	0.326085	0.326085	0	0	0.1	0.000000000000000E+000	1.33169e-05
1	1	0	1	11840	0.1	0.133205	0.0998439	0.000277298	0.328304	0.328304	0	4.16727e-05	0.000000000000000E+000	1.20482e+06	0.000000000000000E+000	0.000000000000000E+000	0.328304	0.328304	0	0	0.1	0.000000000000000E+000	1.32997e-05
1	1	0	1	11920	0.1	0.132919	0.0998821	0.000277295	0.330522	0.330522	0	4.19678e-05	0.000000000000000E+000	1.21332e+06	0.000000000000000E+000	0.000000000000000E+000	0.330522	0.330522	0	0	0.1	0.000000000000000E+000	1.32762e-05
1	1	0	1	12000	0.1	0.132766	0.0999331	0.000277306	0.33274	0.33274	0	4.22624e-05	0.000000000000000E+000	1.22165e+06	0.000000000000000E+000	0.000000000000000E+000	0.33274	0.33274	0	0	0.1	0.000000000000000E+000	1.32677e-05
1	1	0	1	12080	0.1	0.132556	0.0998057	0.000277316	0.334959	0.334959	0	4.25566e-05	0.000000000000000E+000	1.23006e+06	0.000000000000000E+000	0.000000000000000E+000	0.334959	0.334959	0	0	0.1	0.000000000000000E+000	1.32298e-05
1	1	0	1	12160	0.1	0.132384	0.0998185	0.000277328	0.337178	0.337178	0	4.28504e-05	0.000000000000000E+000	1.23842e+06	0.000000000000000E+000	0.000000000000000E+000	0.337178	0.337178	0	0	0.1	0.000000000000000E+000	1.32144e-05
1	1	0	1	12240	0.1	0.132174	0.0997994	0.000277322	0.339396	0.339396	0	4.31437e-05	0.000000000000000E+000	1.24684e+06	0.000000000000000E+000	0.000000000000000E+000	0.339396	0.339396	0	0	0.1	0.000000000000000E+000	1.31909e-05
1	1	0	1	12320	0.1	0.131964	0.099863	0.000277331	0.341615	0.341615	0	4.34365e-05	0.000000000000000E+000	1.25526e+06	0.000000000000000E+000	0.000000000000000E+000	0.341615	0.341615	0	0	0.1	0.000000000000000E+000	1.31783e-05
1	1	0	1	12400	0.1	0.131639	0.0998439	0.000277333	0.343833	0.343833	0	4.37289e-05	0.000000000000000E+000	1.26383e+06	0.000000000000000E+000	0.000000000000000E+000	0.343833	0.343833	0	0	0.1	0.000000000000000E+000	1.31434e-05
1	1	0	1	12480	0.1	0.131486	0.0998949	0.000277338	0.346052	0.346052	0	4.40209e-05	0.000000000000000E+000	1.27218e+06	0.000000000000000E+000	0.000000000000000E+000	0.346052	0.346052	0	0	0.1	0.000000000000000E+000	1.31348e-05
1	1	0	1	12560	0.1	0.131315	0.0998312	0.000277332	0.348271	0.348271	0	4.43124e-05	0.000000000000000E+000	1.28056e+06	0.000000000000000E+000	0.000000000000000E+000	0.348271	0.348271	0	0	0.1	0.000000000000000E+000	1.31093e-05
1	1	0	1	12640	0.1	0.131028	0.0998057	0.000277335	0.350489	0.350489	0	4.46033e-05	0.000000000000000E+000	1.2891e+06	0.000000000000000E+000	0.000000000000000E+000	0.350489	0.350489	0	0	0.1	0.000000000000000E+000	1.30774e-05
1	1	0	1	12720	0.1	0.130856	0.0998312	0.000277336	0.352708	0.352708	0	4.48939e-05	0.000000000000000E+000	1.29749e+06	0.000000000000000E+000	0.000000000000000E+000	0.352708	0.352708	0	0	0.1	0.000000000000000E+000	1.30635e-05
1	1	0	1	12800	0.1	0.130646	0.0998885	0.000277334	0.354927	0.354927	0	4.51841e-05	0.000000000000000E+000	1.30593e+06	0.000000000000000E+000	0.000000000000000E+000	0.354927	0.354927	0	0	0.1	0.000000000000000E+000	1.30501e-05
1	1	0	1	12880	0.1	0.130455	0.0998758	0.000277318	0.357145	0.357145	0	4.54737e-05	0.000000000000000E+000	1.31435e+06	0.000000000000000E+000	0.000000000000000E+000	0.357145	0.357145	0	0	0.1	0.000000000000000E+000	1.30293e-05
1	1	0	1	12960	0.1	0.130207	0.099863	0.00027732	0.359364	0.359364	0	4.57628e-05	0.000000000000000E+000	1.32285e+06	0.000000000000000E+000	0.000000000000000E+000	0.359364	0.359364	0	0	0.1	0.000000000000000E+000	1.30029e-05
1	1	0	1	13040	0.1	0.130035	0.0998312	0.000277316	0.361583	0.361583	0	4.60515e-05	0.000000000000000E+000	1.33125e+06	0.000000000000000E+000	0.000000000000000E+000	0.361583	0.361583	0	0	0.1	0.000000000000000E+000	1.29816e-05
1	1	0	1	13120	0.1	0.129863	0.0998503	0.000277331	0.363801	0.363801	0	4.63397e-05	0.000000000000000E+000	1.33965e+06	0.000000000000000E+000	0.000000000000000E+000	0.363801	0.363801	0	0	0.1	0.000000000000000E+000	1.29669e-05
1	1	0	1	13200	0.1	0.129596	0.0997675	0.000277321	0.36602	0.36602	0	4.66274e-05	0.000000000000000E+000	1.34819e+06	0.000000000000000E+000	0.000000000000000E+000	0.36602	0.36602	0	0	0.1	0.000000000000000E+000	1.29295e-05
1	1	0	1	13280	0.1	0.129329	0.0998567	0.000277322	0.368238	0.368238	0	4.69148e-05	0.000000000000000E+000	1.35673e+06	0.000000000000000E+000	0.000000000000000E+000	0.368238	0.368238	0	0	0.1	0.000000000000000E+000	1.29143e-05
1	1	0	1	13360	0.1	0.129214	0.0998121	0.000277334	0.370457	0.370457	0	4.72017e-05	0.000000000000000E+000	1.36507e+06	0.000000000000000E+000	0.000000000000000E+000	0.370457	0.370457	0	0	0.1	0.000000000000000E+000	1.28971e-05
1	1	0	1	13440	0.1	0.129004	0.0999012	0.000277323	0.372676	0.372676	0	4.74881e-05	0.000000000000000E+000	1.37354e+06	0.000000000000000E+000	0.000000000000000E+000	0.372676	0.372676	0	0	0.1	0.000000000000000E+000	1.28877e-05
1	1	0	1	13520	0.1	0.128699	0.0997739	0.000277305	0.374894	0.374894	0	4.7774e-05	0.000000000000000E+000	1.38215e+06	0.000000000000000E+000	0.000000000000000E+000	0.374894	0.374894	0	0	0.1	0.000000000000000E+000	1.28408e-05
1	1	0	1	13600	0.1	0.128584	0.0997866	0.000277313	0.377113	0.377113	0	4.80596e-05	0.000000000000000E+000	1.39049e+06	0.000000000000000E+000	0.000000000000000E+000	0.377113	0.377113	0	0	0.1	0.000000000000000E+000	1.2831e-05
1	1	0	1	13680	0.1	0.128336	0.0998057	0.000277313	0.379331	0.379331	0	4.83447e-05	0.000000000000000E+000	1.39903e+06	0.000000000000000E+000	0.000000000000000E+000	0.379331	0.379331	0	0	0.1	0.000000000000000E+000	1.28087e-05
1	1	0	1	13760	0.1	0.128259	0.0998439	0.000277315	0.38155	0.38155	0	4.86294e-05	0.000000000000000E+000	1.40732e+06	0.000000000000000E+000	0.000000000000000E+000	0.38155	0.38155	0	0	0.1	0.000000000000000E+000	1.28059e-05
1	1	0	1	13840	0.1	0.128069	0.099914	0.000277311	0.383768	0.383768	0	4.89137e-05	0.000000000000000E+000	1.41578e+06	0.000000000000000E+000	0.000000000000000E+000	0.383768	0.383768	0	0	0.1	0.000000000000000E+000	1.27958e-05
1	1	0	1	13920	0.1	0.127897	0.0998821	0.000277311	0.385987	0.385987	0	4.91974e-05	0.000000000000000E+000	1.42421e+06	0.000000000000000E+000	0.000000000000000E+000	0.385987	0.385987	0	0	0.1	0.000000000000000E+000	1.27746e-05
1	1	0	1	14000	0.1	0.127553	0.0998885	0.000277316	0.388205	0.388205	0	4.94809e-05	0.000000000000000E+000	1.4329e+06	0.000000000000000E+000	0.000000000000000E+000	0.388205	0.388205	0	0	0.1	0.000000000000000E+000	1.27411e-05
1	1	0	1	14080	0.1	0.127534	0.0998885	0.000277318	0.390424	0.390424	0	4.97638e-05	0.000000000000000E+000	1.44112e+06	0.000000000000000E+000	0.000000000000000E+000	0.390424	0.390424	0	0	0.1	0.000000000000000E+000	1.27392e-05
1	1	0	1	14160	0.1	0.127247	0.0998185	0.000277314	0.392642	0.392642	0	5.00463e-05	0.000000000000000E+000	1.44974e+06	0.000000000000000E+000	0.000000000000000E+000	0.392642	0.392642	0	0	0.1	0.000000000000000E+000	1.27016e-05
1	1	0	1	14240	0.1	0.127056	0.0997994	0.000277307	0.394861	0.394861	0	5.03285e-05	0.000000000000000E+000	1.45821e+06	0.000000000000000E+000	0.000000000000000E+000	0.394861	0.394861	0	0	0.1	0.000000000000000E+000	1.26802e-05
1	1	0	1	14320	0.1	0.126923	0.0998694	0.000277313	0.397079	0.397079	0	5.06102e-05	0.000000000000000E+000	1.46661e+06	0.000000000000000E+000	0.000000000000000E+000	0.397079	0.397079	0	0	0.1	0.000000000000000E+000	1.26757e-05
1	1	0	1	14400	0.1	0.126713	0.0998121	0.000277309	0.399298	0.399298	0	5.08914e-05	0.000000000000000E+000	1.47512e+06	0.000000000000000E+000	0.000000000000000E+000	0.399298	0.399298	0	0	0.1	0.000000000000000E+000	1.26475e-05
1	1	0	1	14480	0.1	0.126503	0.0998248	0.0002773	0.401516	0.401516	0	5.11723e-05	0.000000000000000E+000	1.48363e+06	0.000000000000000E+000	0.000000000000000E+000	0.401516	0.401516	0	0	0.1	0.000000000000000E+000	1.26281e-05
1	1	0	1	14560	0.1	0.126369	0.0997675	0.000277306	0.403734	0.403734	0	5.14528e-05	0.000000000000000E+000	1.49204e+06	0.000000000000000E+000	0.000000000000000E+000	0.403734	0.403734	0	0	0.1	0.000000000000000E+000	1.26075e-05
1	1	0	1	14640	0.1	0.126254	0.0998758	0.000277293	0.405953	0.405953	0	5.17329e-05	0.000000000000000E+000	1.50041e+06	0.000000000000000E+000	0.000000000000000E+000	0.405953	0.405953	0	0	0.1	0.000000000000000E+000	1.26098e-05
1	1	0	1	14720	0.1	0.12593	0.0998057	0.000277305	0.408171	0.408171	0	5.20126e-05	0.000000000000000E+000	1.50911e+06	0.000000000000000E+000	0.000000000000000E+000	0.408171	0.408171	0	0	0.1	0.000000000000000E+000	1.25685e-05
1	1	0	1	14800	0.1	0.125815	0.0998503	0.000277308	0.41039	0.41039	0	5.22919e-05	0.000000000000000E+000	1.51749e+06	0.000000000000000E+000	0.000000000000000E+000	0.41039	0.41039	0	0	0.1	0.000000000000000E+000	1.25627e-05
1	1	0	1	14880	0.1	0.125739	0.0998376	0.000277297	0.412608	0.412608	0	5.25709e-05	0.000000000000000E+000	1.52582e+06	0.000000000000000E+000	0.000000000000000E+000	0.412608	0.412608	0	0	0.1	0.000000000000000E+000	1.25535e-05
1	1	0	1	14960	0.1	0.125452	0.0998439	0.000277307	0.414827	0.414827	0	5.28495e-05	0.000000000000000E+000	1.53447e+06	0.000000000000000E+000	0.000000000000000E+000	0.414827	0.414827	0	0	0.1	0.000000000000000E+000	1.25257e-05
1	1	0	1	15040	0.1	0.1253	0.0998376	0.0002773	0.417045	0.417045	0	5.31275e-05	0.000000000000000E+000	1.54292e+06	0.000000000000000E+000	0.000000000000000E+000	0.417045	0.417045	0	0	0.1	0.000000000000000E+000	1.25096e-05
1	1	0	1	15120	0.1	0.125262	0.0997803	0.000277299	0.419263	0.419263	0	5.34053e-05	0.000000000000000E+000	1.55119e+06	0.000000000000000E+000	0.000000000000000E+000	0.419263	0.419263	0	0	0.1	0.000000000000000E+000	1.24986e-05
1	1	0	1	15200	0.1	0.124994	0.0998121	0.000277286	0.421482	0.421482	0	5.36826e-05	0.000000000000000E+000	1.55982e+06	0.000000000000000E+000	0.000000000000000E+000	0.421482	0.421482	0	0	0.1	0.000000000000000E+000	1.24759e-05
1	1	0	1	15280	0.1	0.124784	0.0998185	0.000277301	0.4237	0.4237	0	5.39595e-05	0.000000000000000E+000	1.56837e+06	0.000000000000000E+000	0.000000000000000E+000	0.4237	0.4237	0	0	0.1	0.000000000000000E+000	1.24558e-05
1	1	0	1	15360	0.1	0.124689	0.0998821	0.00027729	0.425918	0.425918	0	5.42361e-05	0.000000000000000E+000	1.57674e+06	0.000000000000000E+000	0.000000000000000E+000	0.425918	0.425918	0	0	0.1	0.000000000000000E+000	1.24542e-05
1	1	0	1	15440	0.1	0.12444	0.0998312	0.000277299	0.428137	0.428137	0	5.45123e-05	0.000000000000000E+000	1.58536e+06	0.000000000000000E+000	0.000000000000000E+000	0.428137	0.428137	0	0	0.1	0.000000000000000E+000	1.2423e-05
1	1	0	1	15520	0.1	0.124211	0.0998567	0.000277305	0.430355	0.430355	0	5.47882e-05	0.000000000000000E+000	1.59395e+06	0.000000000000000E+000	0.000000000000000E+000	0.430355	0.430355	0	0	0.1	0.000000000000000E+000	1.24033e-05
1	1	0	1	15600	0.1	0.124173	0.0998439	0.000277299	0.432574	0.432574	0	5.50637e-05	0.000000000000000E+000	1.60223e+06	0.000000000000000E+000	0.000000000000000E+000	0.432574	0.432574	0	0	0.1	0.000000000000000E+000	1.23979e-05
1	1	0	1	15680	0.1	0.123982	0.0998694	0.000277294	0.434792	0.434792	0	5.53389e-05	0.000000000000000E+000	1.61076e+06	0.000000000000000E+000	0.000000000000000E+000	0.434792	0.434792	0	0	0.1	0.000000000000000E+000	1.2382e-05
1	1	0	1	15760	0.1	0.123849	0.0997675	0.0002773	0.43701	0.43701	0	5.56137e-05	0.000000000000000E+000	1.6192e+06	0.000000000000000E+000	0.000000000000000E+000	0.43701	0.43701	0	0	0.1	0.000000000000000E+000	1.23561e-05
1	1	0	1	15840	0.1	0.123638	0.0998185	0.000277306	0.439229	0.439229	0	5.58883e-05	0.000000000000000E+000	1.62777e+06	0.000000000000000E+000	0.000000000000000E+000	0.439229	0.439229	0	0	0.1	0.000000000000000E+000	1.23414e-05
1	1	0	1	15920	0.1	0.123486	0.0998248	0.000277297	0.441447	0.441447	0	5.61623e-05	0.000000000000000E+000	1.63625e+06	0.000000000000000E+000	0.000000000000000E+000	0.441447	0.441447	0	0	0.1	0.000000000000000E+000	1.23269e-05
1	1	0	1	16000	0.1	0.123352	0.0998312	0.00027729	0.443666	0.443666	0	5.6436e-05	0.000000000000000E+000	1.6447e+06	0.000000000000000E+000	0.000000000000000E+000	0.443666	0.443666	0	0	0.1	0.000000000000000E+000	1.23144e-05
1	1	0	1	16080	0.1	0.123199	0.0998376	0.000277291	0.445884	0.445884	0	5.67094e-05	0.000000000000000E+000	1.65318e+06	0.000000000000000E+000	0.000000000000000E+000	0.445884	0.445884	0	0	0.1	0.000000000000000E+000	1.22999e-05
1	1	0	1	16160	0.1	0.123027	0.0999076	0.000277291	0.448102	0.448102	0	5.69825e-05	0.000000000000000E+000	1.6617e+06	0.000000000000000E+000	0.000000000000000E+000	0.448102	0.448102	0	0	0.1	0.000000000000000E+000	1.22914e-05
1	1	0	1	16240	0.1	0.122856	0.0998312	0.000277292	0.450321	0.450321	0	5.72553e-05	0.000000000000000E+000	1.67022e+06	0.000000000000000E+000	0.000000000000000E+000	0.450321	0.450321	0	0	0.1	0.000000000000000E+000	1.22648e-05
1	1	0	1	16320	0.1	0.122779	0.0998185	0.000277283	0.452539	0.452539	0	5.75278e-05	0.000000000000000E+000	1.67858e+06	0.000000000000000E+000	0.000000000000000E+000	0.452539	0.452539	0	0	0.1	0.000000000000000E+000	1.22556e-05
1	1	0	1	16400	0.1	0.122512	0.0998057	0.000277296	0.454757	0.454757	0	5.77998e-05	0.000000000000000E+000	1.68728e+06	0.000000000000000E+000	0.000000000000000E+000	0.454757	0.454757	0	0	0.1	0.000000000000000E+000	1.22274e-05
1	1	0	1	16480	0.1	0.122474	0.0998376	0.000277297	0.456976	0.456976	0	5.80716e-05	0.000000000000000E+000	1.69557e+06	0.000000000000000E+000	0.000000000000000E+000	0.456976	0.456976	0	0	0.1	0.000000000000000E+000	1.22275e-05
1	1	0	1	16560	0.1	0.122397	0.0998758	0.000277288	0.459194	0.459194	0	5.8343e-05	0.000000000000000E+000	1.70394e+06	0.000000000000000E+000	0.000000000000000E+000	0.459194	0.459194	0	0	0.1	0.000000000000000E+000	1.22245e-05
1	1	0	1	16640	0.1	0.122092	0.0998057	0.000277284	0.461412	0.461412	0	5.86142e-05	0.000000000000000E+000	1.71271e+06	0.000000000000000E+000	0.000000000000000E+000	0.461412	0.461412	0	0	0.1	0.000000000000000E+000	1.21855e-05
1	1	0	1	16720	0.1	0.122015	0.0998949	0.000277285	0.46363	0.46363	0	5.88851e-05	0.000000000000000E+000	1.72108e+06	0.000000000000000E+000	0.000000000000000E+000	0.46363	0.46363	0	0	0.1	0.000000000000000E+000	1.21887e-05
1	1	0	1	16800	0.1	0.121977	0.0998248	0.000277286	0.465849	0.465849	0	5.91556e-05	0.000000000000000E+000	1.72938e+06	0.000000000000000E+000	0.000000000000000E+000	0.465849	0.465849	0	0	0.1	0.000000000000000E+000	1.21764e-05
1	1	0	1	16880	0.1	0.121805	0.0998376	0.000277298	0.468067	0.468067	0	5.94258e-05	0.000000000000000E+000	1.73792e+06	0.000000000000000E+000	0.000000000000000E+000	0.468067	0.468067	0	0	0.1	0.000000000000000E+000	1.21608e-05
1	1	0	1	16960	0.1	0.121653	0.0998121	0.000277286	0.470286	0.470286	0	5.96958e-05	0.000000000000000E+000	1.74644e+06	0.000000000000000E+000	0.000000000000000E+000	0.470286	0.470286	0	0	0.1	0.000000000000000E+000	1.21424e-05
1	1	0	1	17040	0.1	0.121557	0.0997548	0.000277303	0.472504	0.472504	0	5.99654e-05	0.000000000000000E+000	1.75485e+06	0.000000000000000E+000	0.000000000000000E+000	0.472504	0.472504	0	0	0.1	0.000000000000000E+000	1.21259e-05
1	1	0	1	17120	0.1	0.121252	0.0998185	0.000277313	0.474722	0.474722	0	6.02346e-05	0.000000000000000E+000	1.76364e+06	0.000000000000000E+000	0.000000000000000E+000	0.474722	0.474722	0	0	0.1	0.000000000000000E+000	1.21032e-05
1	1	0	1	17200	0.1	0.12108	0.0997994	0.000277299	0.476941	0.476941	0	6.05034e-05	0.000000000000000E+000	1.7722e+06	0.000000000000000E+000	0.000000000000000E+000	0.476941	0.476941	0	0	0.1	0.000000000000000E+000	1.20837e-05
1	1	0	1	17280	0.1	0.121137	0.0997994	0.000277308	0.479159	0.479159	0	6.07721e-05	0.000000000000000E+000	1.78034e+06	0.000000000000000E+000	0.000000000000000E+000	0.479159	0.479159	0	0	0.1	0.000000000000000E+000	1.20894e-05
1	1	0	1	17360	0.1	0.120965	0.099863	0.000277308	0.481378	0.481378	0	6.10405e-05	0.000000000000000E+000	1.7889e+06	0.000000000000000E+000	0.000000000000000E+000	0.481378	0.481378	0	0	0.1	0.000000000000000E+000	1.208e-05
1	1	0	1	17440	0.1	0.120755	0.0998312	0.000277308	0.483596	0.483596	0	6.13085e-05	0.000000000000000E+000	1.79753e+06	0.000000000000000E+000	0.000000000000000E+000	0.483596	0.483596	0	0	0.1	0.000000000000000E+000	1.20551e-05
1	1	0	1	17520	0.1	0.120717	0.0998248	0.000277294	0.485815	0.485815	0	6.15763e-05	0.000000000000000E+000	1.80585e+06	0.000000000000000E+000	0.000000000000000E+000	0.485815	0.485815	0	0	0.1	0.000000000000000E+000	1.20506e-05
1	1	0	1	17600	0.1	0.120622	0.0998821	0.000277308	0.488033	0.488033	0	6.18438e-05	0.000000000000000E+000	1.81427e+06	0.000000000000000E+000	0.000000000000000E+000	0.488033	0.488033	0	0	0.1	0.000000000000000E+000	1.20479e-05
1	1	0	1	17680	0.1	0.120354	0.0998503	0.000277298	0.490251	0.490251	0	6.2111e-05	0.000000000000000E+000	1.82302e+06	0.000000000000000E+000	0.000000000000000E+000	0.490251	0.490251	0	0	0.1	0.000000000000000E+000	1.20174e-05
1	1	0	1	17760	0.1	0.120354	0.0998376	0.000277301	0.49247	0.49247	0	6.23779e-05	0.000000000000000E+000	1.83127e+06	0.000000000000000E+000	0.000000000000000E+000	0.49247	0.49247	0	0	0.1	0.000000000000000E+000	1.20159e-05
1	1	0	1	17840	0.1	0.120259	0.0998248	0.000277304	0.494688	0.494688	0	6.26447e-05	0.000000000000000E+000	1.8397e+06	0.000000000000000E+000	0.000000000000000E+000	0.494688	0.494688	0	0	0.1	0.000000000000000E+000	1.20048e-05